TITLE:  An Experimental Investigation of the Flow through an Axial-Flow Pump
AUTHORS:  Zierke, Straka, and Taylor
JOURNAL PAPER FIGURE(S):  3
PSU/ARL TR 93-12 FIGURE(S): 14, 15
*****************************************************************************
DATA TITLE:  Inlet Profile
MEASUREMENT TYPE:  linear 5-hole probe survey
MEASUREMENT LOCATION:  2.55 inches upstream of IGV leading edge
NOMINAL CONDITIONS:  
  vinf = 35.0 ft/sec
  pref = 43.2 psia
  rho  = 1.932 slugs/ft^3
  rotor rpm  = 260
  volumetric flow coefficient = 1.36
  IGV span = 10.50 inches 
  IGV chord = 6.90 inches
DATA COLUMNS:
  1 --  percent span of measurement (0 is at hub, 100 at outer casing liner)
  2 --  vz, axial velocity (ft/sec)  [uncertainty: 1.1 ft/sec]
  3 --  vt, tangential velocity (ft/sec)  [uncertainty: 1.1 ft/sec] 
  4 --  vr, radial velocity (ft/sec)  [uncertainty: 1.1 ft/sec]
  5 --  cpt, total pressure coefficient, = (Ptot - Pref)/(0.5*rho*vinf^2)
  6 --  cps, static pressure coefficient, = (Psta - Pref)/(0.5*rho*vinf^2)
*****************************************************************************
98.0952,   15.8060,   1.9844,   1.9239,   0.2785,   0.0679,   
98.0952,   15.7013,   2.0114,   1.7808,   0.2754,   0.0685,   
98.0952,   16.9284,   1.8392,   2.1025,   0.2996,   0.0594,   
97.1429,   24.7795,   2.0775,   1.7333,   0.5054,   -0.0003,   
97.1429,   24.7586,   2.0592,   1.7532,   0.5074,   0.0008,   
97.1429,   25.2169,   2.0690,   1.7116,   0.5157,   -0.0070,   
96.1905,   31.0771,   1.6335,   1.7333,   0.7599,   -0.0329,   
96.1905,   30.1953,   1.7874,   1.5431,   0.7216,   -0.0245,   
96.1905,   30.6581,   1.7141,   1.6306,   0.7375,   -0.0304,   
95.2381,   32.6877,   1.6608,   1.9283,   0.8415,   -0.0382,   
95.2381,   32.8731,   1.5239,   1.9349,   0.8504,   -0.0361,   
95.2381,   33.0606,   1.5162,   1.9836,   0.8632,   -0.0346,   
94.2857,   34.2124,   1.4003,   1.9489,   0.9272,   -0.0326,   
94.2857,   34.0123,   1.5282,   1.9108,   0.9167,   -0.0300,   
94.2857,   34.0486,   1.4606,   1.9295,   0.9192,   -0.0299,   
92.3810,   34.5721,   1.3090,   1.9779,   0.9674,   -0.0106,   
92.3810,   34.5038,   1.4596,   1.9450,   0.9589,   -0.0127,   
92.3810,   34.5334,   1.3064,   1.9528,   0.9646,   -0.0104,   
91.4286,   34.6627,   1.2835,   1.8701,   0.9778,   -0.0010,   
91.4286,   34.6474,   1.2328,   1.9809,   0.9843,   0.0032,   
91.4286,   34.7087,   1.1707,   2.0248,   0.9869,   0.0011,   
90.4762,   34.5667,   1.2392,   1.8272,   0.9847,   0.0075,   
90.4762,   34.5297,   1.2409,   1.8392,   0.9836,   0.0071,   
90.4762,   34.5349,   1.2219,   1.8256,   0.9862,   0.0076,   
89.5238,   34.5663,   1.1723,   1.7241,   0.9907,   0.0146,   
89.5238,   34.5711,   1.1055,   1.7539,   0.9923,   0.0172,   
89.5238,   34.6026,   1.1631,   1.7258,   0.9913,   0.0149,   
88.0952,   34.4560,   1.0961,   1.5519,   0.9929,   0.0272,   
88.0952,   34.3313,   1.0467,   1.6154,   0.9924,   0.0267,   
88.0952,   34.4063,   1.0517,   1.6305,   0.9931,   0.0265,   
85.7143,   34.1795,   1.0265,   1.4511,   0.9938,   0.0409,   
85.7143,   34.1061,   1.0251,   1.4472,   0.9934,   0.0394,   
85.7143,   34.1310,   1.0299,   1.4410,   0.9931,   0.0408,   
83.3333,   34.0228,   1.0248,   1.3279,   0.9939,   0.0476,   
83.3333,   33.9856,   1.0243,   1.3573,   0.9943,   0.0481,   
83.3333,   34.0260,   1.0317,   1.3444,   0.9950,   0.0514,   
80.9524,   33.9814,   0.9737,   1.2588,   0.9944,   0.0539,   
80.9524,   33.9859,   0.9258,   1.2898,   0.9946,   0.0538,   
80.9524,   33.9506,   0.9393,   1.3235,   0.9937,   0.0522,   
78.5714,   33.9445,   0.9196,   1.2072,   0.9945,   0.0562,   
78.5714,   33.9469,   0.9063,   1.2277,   0.9944,   0.0567,   
78.5714,   33.9268,   0.8867,   1.2330,   0.9943,   0.0542,   
76.1905,   33.8339,   0.7859,   1.1841,   0.9943,   0.0549,   
76.1905,   33.8532,   0.7885,   1.1604,   0.9947,   0.0557,   
76.1905,   33.9495,   0.7919,   1.1539,   0.9941,   0.0545,   
73.8095,   33.8200,   0.7276,   1.0730,   0.9951,   0.0601,   
73.8095,   33.9141,   0.7148,   1.1057,   0.9953,   0.0590,   
73.8095,   33.8453,   0.7406,   1.0870,   0.9951,   0.0613,   
71.4286,   33.7245,   0.9233,   1.0823,   0.9943,   0.0672,   
71.4286,   33.7218,   0.9683,   1.0931,   0.9948,   0.0667,   
71.4286,   33.7003,   0.9090,   1.0924,   0.9943,   0.0673,   
69.0476,   33.6739,   0.9540,   0.9997,   0.9949,   0.0720,   
69.0476,   33.6198,   0.9393,   0.9947,   0.9947,   0.0734,   
69.0476,   33.6169,   0.9084,   0.9755,   0.9951,   0.0716,   
66.6667,   33.6478,   0.8654,   0.8805,   0.9950,   0.0767,   
66.6667,   33.5481,   0.9051,   0.9232,   0.9949,   0.0744,   
66.6667,   33.5186,   0.9379,   0.8857,   0.9952,   0.0778,   
64.2857,   33.5412,   0.9561,   0.8568,   0.9955,   0.0813,   
64.2857,   33.4671,   0.9265,   0.8159,   0.9952,   0.0795,   
64.2857,   33.5548,   0.9238,   0.8469,   0.9950,   0.0774,   
61.9048,   33.5378,   0.9111,   0.8255,   0.9945,   0.0802,   
61.9048,   33.4120,   0.9320,   0.8179,   0.9948,   0.0817,   
61.9048,   33.4670,   0.8479,   0.7946,   0.9950,   0.0834,   
59.5238,   33.4203,   0.8381,   0.7769,   0.9954,   0.0828,   
59.5238,   33.4769,   0.8139,   0.7641,   0.9951,   0.0832,   
59.5238,   33.4110,   0.8891,   0.8189,   0.9948,   0.0814,   
57.1429,   33.4947,   0.7881,   0.7543,   0.9953,   0.0823,   
57.1429,   33.4952,   0.7963,   0.7468,   0.9955,   0.0818,   
57.1429,   33.5016,   0.7990,   0.8158,   0.9950,   0.0823,   
54.7619,   33.6359,   0.6424,   0.6686,   0.9960,   0.0741,   
54.7619,   33.5407,   0.6549,   0.7116,   0.9957,   0.0749,   
54.7619,   33.6103,   0.6662,   0.6526,   0.9960,   0.0765,   
52.3810,   33.4597,   0.6614,   0.7116,   0.9952,   0.0810,   
52.3810,   33.4718,   0.6619,   0.7221,   0.9956,   0.0829,   
52.3810,   33.4796,   0.6755,   0.7014,   0.9956,   0.0832,   
50.0000,   33.4403,   0.7059,   0.7791,   0.9952,   0.0868,   
50.0000,   33.4350,   0.6807,   0.7510,   0.9955,   0.0883,   
50.0000,   33.3511,   0.6580,   0.7897,   0.9948,   0.0873,   
47.6190,   33.3399,   0.7575,   0.8230,   0.9953,   0.0915,   
47.6190,   33.3691,   0.7771,   0.8400,   0.9950,   0.0894,   
47.6190,   33.3441,   0.7656,   0.8199,   0.9955,   0.0912,   
45.2381,   33.5107,   0.6772,   0.9067,   0.9954,   0.0830,   
45.2381,   33.4349,   0.6568,   0.9042,   0.9950,   0.0837,   
45.2381,   33.3909,   0.6737,   0.8903,   0.9950,   0.0865,   
42.8571,   33.5825,   0.5706,   0.9236,   0.9958,   0.0800,   
42.8571,   33.5149,   0.5819,   0.9219,   0.9943,   0.0773,   
42.8571,   33.5452,   0.5632,   0.9363,   0.9950,   0.0782,   
40.4762,   33.6284,   0.5841,   0.9579,   0.9952,   0.0751,   
40.4762,   33.6184,   0.5713,   0.9522,   0.9955,   0.0747,   
40.4762,   33.6047,   0.5443,   0.9136,   0.9959,   0.0763,   
38.0952,   33.2961,   0.5956,   0.9792,   0.9951,   0.0876,   
38.0952,   33.4286,   0.5840,   0.9616,   0.9948,   0.0883,   
38.0952,   33.3913,   0.5812,   0.9802,   0.9953,   0.0886,   
35.7143,   33.4630,   0.5495,   0.8115,   0.9958,   0.0833,   
35.7143,   33.4418,   0.5492,   0.7894,   0.9954,   0.0842,   
35.7143,   33.4389,   0.5652,   0.8302,   0.9954,   0.0878,   
33.3333,   33.5085,   0.5796,   0.9158,   0.9956,   0.0808,   
33.3333,   33.5467,   0.5760,   0.8972,   0.9955,   0.0802,   
33.3333,   33.5285,   0.5576,   0.8964,   0.9957,   0.0827,   
30.9524,   33.5443,   0.6458,   1.0275,   0.9957,   0.0828,   
30.9524,   33.4338,   0.6259,   1.0402,   0.9949,   0.0826,   
30.9524,   33.4371,   0.6230,   1.0379,   0.9947,   0.0817,   
28.5714,   33.2055,   0.5962,   0.9704,   0.9952,   0.0923,   
28.5714,   33.2155,   0.6119,   1.0176,   0.9951,   0.0927,   
28.5714,   33.2442,   0.5833,   0.9840,   0.9955,   0.0955,   
26.1905,   33.2960,   0.7101,   0.9866,   0.9954,   0.0941,   
26.1905,   33.2689,   0.7162,   0.9783,   0.9952,   0.0934,   
26.1905,   33.2570,   0.7499,   1.0084,   0.9948,   0.0923,   
23.8095,   33.3124,   0.7787,   0.9832,   0.9952,   0.0877,   
23.8095,   33.3275,   0.7526,   0.9836,   0.9950,   0.0909,   
23.8095,   33.3078,   0.8001,   0.9792,   0.9954,   0.0886,   
21.4286,   33.5875,   0.8541,   0.9661,   0.9954,   0.0781,   
21.4286,   33.4762,   0.8501,   0.9383,   0.9950,   0.0767,   
21.4286,   33.6011,   0.8752,   0.9495,   0.9948,   0.0785,   
19.0476,   33.5313,   0.8796,   0.9722,   0.9948,   0.0788,   
19.0476,   33.5066,   0.9251,   0.9450,   0.9956,   0.0800,   
19.0476,   33.5492,   0.9001,   0.9590,   0.9954,   0.0781,   
16.6667,   33.3840,   0.9137,   0.9339,   0.9954,   0.0867,   
16.6667,   33.4469,   0.8245,   0.9408,   0.9954,   0.0863,   
16.6667,   33.4262,   0.8842,   0.9465,   0.9953,   0.0853,   
14.2857,   33.4768,   0.8658,   0.9086,   0.9962,   0.0829,   
14.2857,   33.4209,   0.8824,   0.9235,   0.9959,   0.0831,   
14.2857,   33.4396,   0.7985,   0.9028,   0.9957,   0.0841,   
11.9048,   33.5555,   0.8450,   0.9176,   0.9958,   0.0779,   
11.9048,   33.4829,   0.8611,   0.9356,   0.9946,   0.0771,   
11.9048,   33.4492,   0.8771,   0.9232,   0.9957,   0.0774,   
10.4762,   33.3431,   0.6905,   0.7375,   0.9902,   0.0825,   
10.4762,   33.5198,   0.8533,   0.8037,   0.9957,   0.0738,   
10.4762,   33.5443,   0.9141,   0.8470,   0.9952,   0.0777,   
9.5238,   33.5672,   0.6155,   0.4532,   0.9961,   0.0801,   
9.5238,   33.5236,   0.7162,   0.6166,   0.9960,   0.0778,   
9.5238,   33.5911,   0.6685,   0.6116,   0.9959,   0.0773,   
8.5714,   33.6267,   0.7134,   0.5834,   0.9959,   0.0746,   
8.5714,   33.5906,   0.8841,   0.6451,   0.9961,   0.0759,   
8.5714,   33.6297,   0.6487,   0.4942,   0.9963,   0.0771,   
7.6190,   33.6766,   0.6454,   0.4186,   0.9965,   0.0746,   
7.6190,   33.6046,   0.6356,   0.4063,   0.9957,   0.0737,   
7.6190,   33.6488,   0.6126,   0.3810,   0.9959,   0.0726,   
5.7143,   33.7999,   0.6247,   0.3249,   0.9966,   0.0651,   
5.7143,   33.7869,   0.6354,   0.3053,   0.9966,   0.0686,   
5.7143,   33.7929,   0.6596,   0.3213,   0.9963,   0.0670,   
4.7619,   33.8237,   0.7360,   0.3248,   0.9961,   0.0637,   
4.7619,   33.9194,   0.6855,   0.2835,   0.9969,   0.0637,   
4.7619,   33.8725,   0.6364,   0.3114,   0.9966,   0.0643,   
3.8095,   33.9044,   0.6515,   0.3062,   0.9964,   0.0583,   
3.8095,   33.9246,   0.6652,   0.2955,   0.9969,   0.0588,   
3.8095,   33.9503,   0.6199,   0.2859,   0.9970,   0.0598,   
2.8571,   33.9747,   0.6931,   0.3058,   0.9964,   0.0541,   
2.8571,   34.0177,   0.6862,   0.3027,   0.9961,   0.0540,   
2.8571,   33.9890,   0.7155,   0.3054,   0.9962,   0.0564,   
